Folder: psfinal/examples/data

Note: examples/data/measured_psd.txt
# Measured Surface PSD Data
# Wavenumber q (1/m)	PSD C(q) (m^4)
2.E+01	3.E-09
2.E+01	2.E-09
2.E+01	2.E-09
2.E+01	1.E-09
2.E+01	1.E-09
2.E+01	7.E-10
3.E+01	6.E-10
3.E+01	4.E-10
3.E+01	3.E-10
4.E+01	2.E-10
4.E+01	2.E-10
4.E+01	1.E-10
5.E+01	1.E-10
5.E+01	8.E-11
6.E+01	6.E-11
6.E+01	4.E-11
7.E+01	3.E-11
7.E+01	3.E-11
8.E+01	2.E-11
9.E+01	1.E-11
9.E+01	1.E-11
1.E+02	8.E-12
1.E+02	6.E-12
1.E+02	5.E-12
1.E+02	3.E-12
1.E+02	3.E-12
2.E+02	2.E-12
2.E+02	2.E-12
2.E+02	1.E-12
2.E+02	9.E-13
2.E+02	6.E-13
3.E+02	5.E-13
3.E+02	4.E-13
3.E+02	3.E-13
3.E+02	2.E-13
4.E+02	2.E-13
4.E+02	1.E-13
4.E+02	9.E-14
5.E+02	7.E-14
5.E+02	5.E-14
6.E+02	4.E-14
6.E+02	3.E-14
7.E+02	2.E-14
8.E+02	2.E-14
8.E+02	1.E-14
9.E+02	9.E-15
1.E+03	7.E-15
1.E+03	5.E-15
1.E+03	4.E-15
1.E+03	3.E-15
1.E+03	2.E-15
2.E+03	2.E-15
2.E+03	1.E-15
2.E+03	1.E-15
2.E+03	7.E-16
2.E+03	6.E-16
2.E+03	4.E-16
3.E+03	3.E-16
3.E+03	2.E-16
3.E+03	2.E-16
4.E+03	1.E-16
4.E+03	1.E-16
4.E+03	8.E-17
5.E+03	6.E-17
5.E+03	4.E-17
6.E+03	3.E-17
6.E+03	3.E-17
7.E+03	2.E-17
7.E+03	1.E-17
8.E+03	1.E-17
9.E+03	8.E-18
9.E+03	6.E-18
1.E+04	5.E-18
1.E+04	4.E-18
1.E+04	3.E-18
1.E+04	2.E-18
1.E+04	2.E-18
2.E+04	1.E-18
2.E+04	9.E-19
2.E+04	6.E-19
2.E+04	5.E-19
2.E+04	4.E-19
3.E+04	3.E-19
3.E+04	2.E-19
3.E+04	2.E-19
3.E+04	1.E-19
4.E+04	9.E-20
4.E+04	7.E-20
4.E+04	5.E-20
5.E+04	4.E-20
5.E+04	3.E-20
6.E+04	2.E-20
6.E+04	2.E-20
7.E+04	1.E-20
8.E+04	9.E-21
8.E+04	7.E-21
9.E+04	5.E-21
1.E+05	4.E-21
1.E+05	3.E-21
1.E+05	2.E-21
1.E+05	2.E-21
1.E+05	1.E-21
2.E+05	1.E-21
2.E+05	7.E-22
2.E+05	6.E-22
2.E+05	4.E-22
2.E+05	3.E-22
2.E+05	2.E-22
3.E+05	2.E-22
3.E+05	1.E-22
3.E+05	1.E-22
4.E+05	8.E-23
4.E+05	6.E-23
4.E+05	4.E-23
5.E+05	3.E-23
5.E+05	3.E-23
6.E+05	2.E-23
6.E+05	1.E-23
7.E+05	1.E-23
7.E+05	8.E-24
8.E+05	6.E-24
9.E+05	5.E-24
1.E+06	4.E-24
1.E+06	3.E-24
1.E+06	2.E-24
1.E+06	2.E-24
1.E+06	1.E-24
1.E+06	9.E-25
2.E+06	6.E-25
2.E+06	5.E-25
2.E+06	4.E-25
2.E+06	3.E-25
2.E+06	2.E-25
3.E+06	2.E-25
3.E+06	1.E-25
3.E+06	9.E-26
3.E+06	7.E-26
4.E+06	5.E-26
4.E+06	4.E-26
4.E+06	3.E-26
5.E+06	2.E-26
5.E+06	2.E-26
6.E+06	1.E-26
6.E+06	9.E-27
7.E+06	7.E-27
8.E+06	5.E-27
8.E+06	4.E-27
9.E+06	3.E-27
1.E+07	2.E-27
1.E+07	2.E-27
1.E+07	1.E-27
1.E+07	1.E-27
1.E+07	7.E-28
2.E+07	6.E-28
2.E+07	4.E-28
2.E+07	3.E-28
2.E+07	2.E-28
2.E+07	2.E-28
2.E+07	1.E-28
3.E+07	1.E-28
3.E+07	8.E-29
3.E+07	6.E-29
4.E+07	4.E-29
4.E+07	3.E-29
4.E+07	3.E-29
5.E+07	2.E-29
5.E+07	1.E-29
6.E+07	1.E-29
6.E+07	8.E-30
7.E+07	6.E-30
7.E+07	5.E-30
8.E+07	4.E-30
9.E+07	3.E-30
1.E+08	2.E-30
1.E+08	2.E-30
1.E+08	1.E-30
1.E+08	9.E-31
1.E+08	6.E-31
1.E+08	5.E-31
2.E+08	4.E-31
2.E+08	3.E-31
2.E+08	2.E-31
2.E+08	2.E-31
2.E+08	1.E-31
3.E+08	9.E-32
3.E+08	7.E-32
3.E+08	5.E-32
3.E+08	4.E-32
4.E+08	3.E-32
4.E+08	2.E-32
4.E+08	2.E-32
5.E+08	1.E-32
5.E+08	9.E-33
6.E+08	7.E-33
6.E+08	5.E-33
7.E+08	4.E-33
8.E+08	3.E-33
8.E+08	2.E-33
9.E+08	2.E-33
1.E+09	1.E-33

Note: examples/README.md
# 예제 스크립트

이 디렉토리에는 Persson 모델 사용법을 보여주는 예제 스크립트들이 포함되어 있습니다.

## 예제 목록

### 1. example_basic.py
기본 G(q) 계산 예제

**실행 방법:**
```bash
cd examples
python example_basic.py
```

**내용:**
- SBR 재료 물성 로드
- 프랙탈 PSD 모델 생성
- G(q) 계산
- 결과 시각화 (4개 그래프)

### 2. example_contact.py
접촉 역학 분석 예제

**실행 방법:**
```bash
cd examples
python example_contact.py
```

**내용:**
- G(q) 계산
- 접촉 응력 분포
- 실 접촉 면적 계산
- 다양한 접촉 통계량
- 종합 결과 시각화 (6개 그래프)

### 3. example_detailed_output.py ⭐ 신규
상세 출력 예제 (작업 지시서 기반)

**실행 방법:**
```bash
cd examples
python example_detailed_output.py
```

**내용:**
- 모든 중간 계산값 추적
- CSV 출력 (Index, log_q, q, C(q), Avg_Modulus_Term, G_Integrand, Delta_G, G(q), P(q))
- 요약 텍스트 파일 생성
- 플롯용 개별 데이터 파일 생성
- 종합 시각화 (9개 그래프)

**출력 파일:**
- `persson_detailed_results.csv` - 전체 계산 과정
- `persson_summary.txt` - 결과 요약
- `output/persson_G_vs_q.csv` - G 함수 플롯 데이터
- `output/persson_contact_area.csv` - 접촉 면적 플롯 데이터
- `output/persson_PSD.csv` - PSD 플롯 데이터
- `persson_detailed_visualization.png` - 종합 그래프

## 출력 파일

각 예제는 실행 후 PNG 이미지 파일을 생성합니다:
- `persson_basic_results.png` - 기본 예제 결과
- `persson_contact_results.png` - 접촉 역학 결과

## 사용자 정의

예제 스크립트를 수정하여 다른 조건으로 계산할 수 있습니다:

```python
# 압력 변경
sigma_0 = 2.0e6  # 2 MPa

# 속도 변경
velocity = 0.05  # 0.05 m/s

# 거칠기 변경
h_rms = 20e-6  # 20 μm

# Hurst 지수 변경
hurst = 0.7
```

File: measured_dma.txt
# Measured DMA Master Curve Data
# Frequency (Hz)	E' Storage Modulus (MPa)	E'' Loss Modulus (MPa)
4.18E-03	6.68E+00	7.37E-01
9.00E-03	6.74E+00	6.13E-01
9.95E-03	7.11E+00	8.44E-01
1.94E-02	7.08E+00	6.81E-01
2.14E-02	7.22E+00	7.95E-01
4.18E-02	7.22E+00	1.04E+00
4.33E-02	7.57E+00	8.85E-01
4.62E-02	7.45E+00	9.09E-01
9.00E-02	7.71E+00	9.27E-01
9.33E-02	7.60E+00	8.81E-01
9.95E-02	7.77E+00	1.04E+00
1.94E-01	8.10E+00	9.87E-01
2.01E-01	7.83E+00	1.03E+00
2.09E-01	8.20E+00	1.03E+00
2.14E-01	7.99E+00	9.24E-01
4.18E-01	8.62E+00	5.90E-01
4.33E-01	8.42E+00	9.54E-01
4.49E-01	8.27E+00	1.04E+00
4.62E-01	8.51E+00	1.24E+00
9.33E-01	8.76E+00	1.24E+00
9.68E-01	8.64E+00	1.27E+00
9.95E-01	8.95E+00	1.10E+00
1.00E+00	8.93E+00	1.21E+00
2.01E+00	9.32E+00	1.44E+00
2.09E+00	9.08E+00	1.34E+00
2.15E+00	9.04E+00	1.28E+00
4.33E+00	9.72E+00	1.12E+00
4.49E+00	9.44E+00	1.52E+00
4.64E+00	9.42E+00	1.43E+00
6.54E+00	1.00E+01	1.56E+00
9.68E+00	1.03E+01	1.73E+00
1.00E+01	9.94E+00	1.61E+00
1.41E+01	1.02E+01	1.64E+00
2.09E+01	1.08E+01	1.69E+00
2.15E+01	1.05E+01	1.81E+00
3.04E+01	1.08E+01	1.90E+00
4.50E+01	1.15E+01	2.02E+00
4.64E+01	1.15E+01	2.07E+00
6.54E+01	1.15E+01	2.17E+00
9.68E+01	1.18E+01	2.27E+00
1.00E+02	1.23E+01	2.13E+00
1.41E+02	1.24E+01	2.38E+00
2.09E+02	1.26E+01	2.58E+00
3.03E+02	1.37E+01	2.72E+00
3.41E+02	1.39E+01	2.94E+00
4.50E+02	1.36E+01	2.96E+00
6.54E+02	1.46E+01	2.83E+00
7.34E+02	1.43E+01	3.34E+00
9.68E+02	1.50E+01	3.38E+00
1.58E+03	1.56E+01	3.78E+00
2.09E+03	1.66E+01	4.06E+00
3.26E+03	1.78E+01	4.73E+00
3.41E+03	1.71E+01	4.52E+00
4.50E+03	1.81E+01	4.89E+00
7.03E+03	1.88E+01	5.35E+00
7.34E+03	1.89E+01	5.42E+00
1.51E+04	2.07E+01	6.51E+00
1.58E+04	2.13E+01	6.99E+00
3.26E+04	2.34E+01	7.95E+00
3.41E+04	2.42E+01	8.88E+00
3.91E+04	2.53E+01	8.43E+00
7.03E+04	2.67E+01	1.01E+01
8.42E+04	2.77E+01	1.04E+01
1.51E+05	3.09E+01	1.36E+01
1.82E+05	3.16E+01	1.31E+01
3.26E+05	3.70E+01	1.84E+01
3.91E+05	3.72E+01	1.70E+01
4.36E+05	4.08E+01	1.82E+01
8.43E+05	4.44E+01	2.29E+01
9.39E+05	4.60E+01	2.32E+01
1.82E+06	5.46E+01	3.17E+01
2.02E+06	5.49E+01	3.05E+01
3.91E+06	6.85E+01	4.43E+01
4.36E+06	6.79E+01	4.09E+01
7.93E+06	8.63E+01	5.17E+01
9.39E+06	8.57E+01	5.59E+01
1.71E+07	1.04E+02	6.85E+01
2.02E+07	1.11E+02	7.74E+01
3.68E+07	1.35E+02	9.27E+01
4.36E+07	1.48E+02	1.11E+02
7.93E+07	1.78E+02	1.25E+02
1.71E+08	2.39E+02	1.68E+02
1.96E+08	2.63E+02	1.74E+02
3.68E+08	3.24E+02	2.24E+02
4.22E+08	3.39E+02	2.25E+02
7.93E+08	4.45E+02	3.06E+02
9.08E+08	4.62E+02	2.90E+02
1.96E+09	6.13E+02	3.58E+02
4.22E+09	7.95E+02	4.25E+02
7.82E+09	1.01E+03	4.71E+02
9.08E+09	1.02E+03	4.94E+02
1.68E+10	1.19E+03	5.32E+02
1.96E+10	1.28E+03	6.06E+02
3.63E+10	1.44E+03	5.82E+02
7.82E+10	1.72E+03	6.21E+02
9.89E+10	7.16E+02	5.43E+02
1.69E+11	2.00E+03	6.45E+02
2.13E+11	3.14E+03	7.28E+02
3.63E+11	2.27E+03	6.63E+02
4.59E+11	3.35E+03	7.39E+02
7.82E+11	2.75E+03	8.59E+02
9.89E+11	3.58E+03	7.27E+02
2.13E+12	3.78E+03	7.06E+02
4.59E+12	3.98E+03	7.04E+02
9.89E+12	5.03E+03	1.41E+03